number,id,video,img,match,NOTES,debug,type,note,practice_trials.thisRepN,practice_trials.thisTrialN,practice_trials.thisN,practice_trials.thisIndex,trials.thisRepN,trials.thisTrialN,trials.thisN,trials.thisIndex,text_inst.started,key_resp_inst.started,key_resp_inst.keys,key_resp_inst.rt,text.started,fixate_middle.started,text.stopped,fixate_middle.stopped,movie.started,Goal_reached.started,key_resp.started,key_resp.keys,key_resp.rt,text_mid.started,key_resp_mid.started,key_resp_mid.keys,key_resp_mid.rt,image.started,Question.started,yes_no.started,yes_no.keys,yes_no.rt,text_confidence.started,key_resp_confidence.started,key_resp_confidence.keys,key_resp_confidence.rt,Question.stopped,text_thanks.started,key_resp_thanks.started,key_resp_thanks.keys,key_resp_thanks.rt,participant,session,date,expName,psychopyVersion,frameRate,
,,,,,,,,,,,,,,,,,3.8786380290985107,3.8786380290985107,space,1.0532588958740234,,,,,,,,,,,,,,,,,,,,,,,,,,,,make up a name,001,2023-03-31_10h06.59.733,meta_vpr,2022.2.5,59.96317264253445,
101,432,../recordings/100/vid.mp4,None,0,"new, old",mismatch,practice,PRACTICE: These are 'different' places,0,0,0,0,,,,,,,,,5.045940160751343,5.463498115539551,5.546164035797119,6.026221036911011,6.026221036911011,15.955718040466309,15.955718040466309,n,2.208098888397217,,,,,,,,,,,,,,,,,,,make up a name,001,2023-03-31_10h06.59.733,meta_vpr,2022.2.5,59.96317264253445,
102,52,../recordings/150/vid.mp4,None,1,"new, old",match,practice,PRACTICE: These are the 'same' place,0,1,1,1,,,,,,,,,18.18995714187622,18.689873218536377,18.70662522315979,19.251183032989502,19.251183032989502,29.22884702682495,29.22884702682495,n,0.7750711441040039,,,,,,,,,,,,,,,,,,,make up a name,001,2023-03-31_10h06.59.733,meta_vpr,2022.2.5,59.96317264253445,
None,None,../recordings/200/vid.mp4,None,None,None,None,None,None,0,2,2,2,,,,,,,,,30.0302472114563,30.518370151519775,30.531342029571533,,31.083019018173218,41.023627042770386,41.023627042770386,y,0.7883930206298828,,,,,,,,,,,,,,,,,,,make up a name,001,2023-03-31_10h06.59.733,meta_vpr,2022.2.5,59.96317264253445,
None,None,../recordings/250/vid.mp4,None,None,None,None,None,None,0,3,3,3,,,,,,,,,41.840108156204224,42.340458154678345,42.340458154678345,,42.900503158569336,52.87828803062439,52.87828803062439,n,2.437701940536499,,,,,,,,,,,,,,,,,,,make up a name,001,2023-03-31_10h06.59.733,meta_vpr,2022.2.5,59.96317264253445,
None,None,../recordings/300/vid.mp4,None,None,None,None,None,None,0,4,4,4,,,,,,,,,55.33448910713196,55.82119107246399,55.83780813217163,56.37250208854675,56.37250208854675,66.32689905166626,66.32689905166626,y,0.7813029289245605,,,,,,,,,,,,,,,,,,,make up a name,001,2023-03-31_10h06.59.733,meta_vpr,2022.2.5,59.96317264253445,
None,None,../recordings/350/vid.mp4,None,None,None,None,None,None,0,5,5,5,,,,,,,,,67.13090205192566,67.62778115272522,67.64476609230042,,68.18225622177124,78.11999201774597,78.11999201774597,y,1.0357120037078857,,,,,,,,,,,,,,,,,,,make up a name,001,2023-03-31_10h06.59.733,meta_vpr,2022.2.5,59.96317264253445,
None,None,../recordings/400/vid.mp4,None,None,None,None,None,None,0,6,6,6,,,,,,,,,79.172030210495,79.67196416854858,79.67196416854858,80.22001218795776,80.22001218795776,90.16641807556152,90.16641807556152,y,0.5896427631378174,,,,,,,,,,,,,,,,,,,make up a name,001,2023-03-31_10h06.59.733,meta_vpr,2022.2.5,59.96317264253445,
None,None,../recordings/450/vid.mp4,None,None,None,None,None,None,0,7,7,7,,,,,,,,,90.7834541797638,91.2671411037445,91.28389501571655,91.83167219161987,91.83167219161987,101.80106401443481,101.80106401443481,n,1.80308198928833,,,,,,,,,,,,,,,,,,,make up a name,001,2023-03-31_10h06.59.733,meta_vpr,2022.2.5,59.96317264253445,
,,,,,,,,,,,,,,,,,,,,,,,,,,,,,,103.62504005432129,103.62504005432129,space,1.8831570148468018,,,,,,,,,,,,,,,make up a name,001,2023-03-31_10h06.59.733,meta_vpr,2022.2.5,59.96317264253445,
4,4,imgs/new0012.png,../recordings/180/first_frame.png,1,"new, old",match,test,None,,,,,0,0,0,3,,,,,,,,,,,,,,,,,,105.57951021194458,107.53068804740906,107.53068804740906,n,1.897442102432251,109.44864821434021,109.44864821434021,4,1.1474840641021729,,,,,,make up a name,001,2023-03-31_10h06.59.733,meta_vpr,2022.2.5,59.96317264253445,
6,6,imgs/new0026.png,../recordings/300/first_frame.png,1,"new, old",match,test,None,,,,,0,1,1,5,,,,,,,,,,,,,,,,,,110.63405919075012,112.61836910247803,112.61836910247803,y,0.6979930400848389,113.33408808708191,113.33408808708191,3,2.078045129776001,,,,,,make up a name,001,2023-03-31_10h06.59.733,meta_vpr,2022.2.5,59.96317264253445,
5,5,imgs/new0015.png,../recordings/240/first_frame.png,1,"new, old",match,test,None,,,,,0,2,2,4,,,,,,,,,,,,,,,,,,115.45504212379456,117.43904519081116,117.43904519081116,n,3.4130709171295166,120.87541198730469,120.87541198730469,5,1.4646790027618408,120.44172501564026,,,,,make up a name,001,2023-03-31_10h06.59.733,meta_vpr,2022.2.5,59.96317264253445,
2,2,imgs/new0005.png,../recordings/60/first_frame.png,1,"new, old",match,test,None,,,,,0,3,3,1,,,,,,,,,,,,,,,,,,122.37582206726074,124.3614091873169,124.3614091873169,n,0.17060303688049316,124.56103301048279,124.56103301048279,5,2.083122968673706,,,,,,make up a name,001,2023-03-31_10h06.59.733,meta_vpr,2022.2.5,59.96317264253445,
3,3,imgs/new0010.png,../recordings/120/first_frame.png,1,"new, old",match,test,None,,,,,0,4,4,2,,,,,,,,,,,,,,,,,,126.68131113052368,128.66485714912415,128.66485714912415,y,0.28319311141967773,128.98044419288635,128.98044419288635,2,0.5916719436645508,,,,,,make up a name,001,2023-03-31_10h06.59.733,meta_vpr,2022.2.5,59.96317264253445,
1,1,imgs/new0003.png,../recordings/10/first_frame.png,1,"new, old",match,test,None,,,,,0,5,5,0,,,,,,,,,,,,,,,,,,129.61534118652344,131.60068321228027,131.60068321228027,y,0.19545793533325195,131.81734704971313,131.81734704971313,5,1.1148159503936768,,,,,,make up a name,001,2023-03-31_10h06.59.733,meta_vpr,2022.2.5,59.96317264253445,
8,8,imgs/new0040.png,../recordings/420/first_frame.png,1,"new, old",match,test,None,,,,,0,6,6,7,,,,,,,,,,,,,,,,,,132.9692521095276,134.95287108421326,134.95287108421326,n,3.0672409534454346,138.05727005004883,138.05727005004883,4,1.1788949966430664,137.9561791419983,,,,,make up a name,001,2023-03-31_10h06.59.733,meta_vpr,2022.2.5,59.96317264253445,
7,7,imgs/new0038.png,../recordings/360/first_frame.png,1,"new, old",match,test,None,,,,,0,7,7,6,,,,,,,,,,,,,,,,,,139.26659417152405,141.25936317443848,141.25936317443848,y,0.6327440738677979,141.92342019081116,141.92342019081116,5,1.5848917961120605,,,,,,make up a name,001,2023-03-31_10h06.59.733,meta_vpr,2022.2.5,59.96317264253445,
,,,,,,,,,,,,,,,,,,,,,,,,,,,,,,,,,,,,,,,,,,,,143.5411891937256,143.5411891937256,space,1.4867920875549316,make up a name,001,2023-03-31_10h06.59.733,meta_vpr,2022.2.5,59.96317264253445,
